Folder: MasterProject/images/spectra/ManuelaSchiek

Note: images/spectra/ManuelaSchiek/2020-09-24 nBSQ in PMMA grosse Substrate INT.txt
2020-09-24 nBSQ in PMMA grosse Substrate INT
Wavelength (nm)	No1 5pct nBSQ	No2 1pct nBSQ	No3 0.5pct nBSQ
191.286987	0.008276	0.009766	0.010356	
192.884644	0.005851	0.005802	0.005790	
194.482346	0.004595	0.004260	0.004681	
196.080109	0.002940	0.003317	0.003316	
197.677933	0.002771	0.002689	0.002739	
199.275803	0.002131	0.002406	0.002341	
200.873734	0.002007	0.002026	0.002074	
202.471710	0.001684	0.001940	0.001876	
204.069748	0.001647	0.001903	0.001990	
205.667816	0.001589	0.001750	0.001591	
207.265961	0.001608	0.001354	0.001663	
208.864166	0.001411	0.001612	0.001553	
210.462372	0.001469	0.001642	0.001569	
212.060669	0.001472	0.001546	0.001589	
213.659012	0.001429	0.001529	0.001471	
215.257401	0.001415	0.001479	0.001569	
216.855835	0.001432	0.001502	0.001352	
218.454315	0.001448	0.001459	0.001435	
220.052856	0.001451	0.001605	0.001547	
221.651443	0.001304	0.001495	0.001369	
223.250046	0.001260	0.001312	0.001345	
224.848724	0.001178	0.001155	0.001280	
226.447433	0.001195	0.001346	0.001215	
228.046219	0.001146	0.001146	0.001208	
229.645020	0.001015	0.001151	0.001225	
231.243866	0.001095	0.001173	0.001154	
232.842773	0.001112	0.001048	0.001135	
234.441696	0.001087	0.001199	0.001129	
236.040695	0.000971	0.001059	0.001037	
237.639725	0.000975	0.001093	0.001139	
239.238800	0.000951	0.001096	0.001194	
240.837891	0.000923	0.001089	0.000954	
242.437042	0.001044	0.001142	0.001131	
244.036224	0.000988	0.001174	0.001203	
245.635468	0.001106	0.001133	0.001109	
247.234741	0.001258	0.001220	0.001257	
248.834061	0.001192	0.001237	0.001378	
250.433395	0.001243	0.001288	0.001343	
252.032791	0.001244	0.001398	0.001429	
253.632233	0.001558	0.001402	0.001369	
255.231689	0.001457	0.001578	0.001589	
256.831177	0.001634	0.001592	0.001597	
258.430725	0.001632	0.001708	0.001670	
260.030304	0.001779	0.001802	0.001822	
261.629913	0.001771	0.001909	0.001879	
263.229553	0.001978	0.001965	0.001869	
264.829254	0.001826	0.002136	0.002031	
266.428955	0.002106	0.002171	0.002122	
268.028687	0.001951	0.002124	0.002013	
269.628479	0.002245	0.002453	0.002398	
271.228302	0.002555	0.002311	0.002403	
272.828156	0.002508	0.002611	0.002665	
274.428040	0.002594	0.002643	0.002812	
276.027924	0.002769	0.002845	0.002919	
277.627869	0.003031	0.003060	0.002816	
279.227844	0.002908	0.003040	0.003202	
280.827820	0.003202	0.003059	0.002846	
282.427887	0.003194	0.003238	0.003120	
284.027924	0.003591	0.003218	0.003730	
285.628021	0.003569	0.003541	0.003586	
287.228119	0.004237	0.003935	0.003747	
288.828278	0.004804	0.004668	0.004441	
290.428436	0.006087	0.006348	0.006022	
292.028625	0.008131	0.008130	0.007660	
293.628876	0.010871	0.010992	0.010762	
295.229126	0.014876	0.014834	0.014577	
296.829407	0.020800	0.020542	0.020359	
298.429688	0.029345	0.029452	0.028642	
300.030029	0.039826	0.039652	0.039023	
301.630371	0.053611	0.053137	0.052494	
303.230743	0.071098	0.070436	0.069437	
304.831116	0.092670	0.091020	0.089932	
306.431580	0.116934	0.115657	0.114477	
308.032013	0.144693	0.143478	0.141747	
309.63244

Note: images/spectra/ManuelaSchiek/2021-07-05 SQIB 5mgmL RT INT_1.txt
2021-07-05 SQIB 5mg/mL no annealing high = medium spin speed
Wavelength (nm)	No8 SQIB neat	No9 SQIB neat
191.457733	0.009118	0.010295	
193.053986	0.006188	0.006438	
194.650345	0.004306	0.004257	
196.246765	0.003357	0.003182	
197.843262	0.002674	0.002559	
199.439835	0.002383	0.002305	
201.036469	0.002003	0.001934	
202.633194	0.001985	0.001821	
204.229980	0.001754	0.001682	
205.826859	0.001554	0.001665	
207.423782	0.001721	0.001587	
209.020782	0.001769	0.001545	
210.617874	0.001654	0.001641	
212.215012	0.001689	0.001439	
213.812225	0.001619	0.001331	
215.409500	0.001552	0.001425	
217.006866	0.001584	0.001626	
218.604279	0.001684	0.001630	
220.201752	0.001481	0.001534	
221.799316	0.001516	0.001501	
223.396927	0.001504	0.001506	
224.994598	0.001486	0.001259	
226.592361	0.001301	0.001303	
228.190155	0.001345	0.001311	
229.788040	0.001290	0.001283	
231.385986	0.001249	0.001145	
232.983978	0.001330	0.001139	
234.582062	0.001211	0.001150	
236.180176	0.001250	0.001107	
237.778351	0.001194	0.001145	
239.376617	0.001204	0.001199	
240.974899	0.001180	0.001167	
242.573273	0.001284	0.001197	
244.171677	0.001251	0.001201	
245.770172	0.001301	0.001351	
247.368698	0.001411	0.001309	
248.967316	0.001385	0.001404	
250.565964	0.001618	0.001436	
252.164673	0.001786	0.001515	
253.763428	0.001619	0.001544	
255.362228	0.001708	0.001834	
256.961121	0.001744	0.001783	
258.560028	0.001979	0.001870	
260.158997	0.002039	0.002052	
261.758026	0.002238	0.002074	
263.357117	0.002310	0.001959	
264.956238	0.002372	0.002326	
266.555450	0.002387	0.002447	
268.154663	0.002519	0.002594	
269.753967	0.002853	0.002509	
271.353271	0.002777	0.002885	
272.952667	0.003064	0.002813	
274.552094	0.003121	0.003035	
276.151550	0.003136	0.003166	
277.751099	0.003262	0.003328	
279.350647	0.003606	0.003442	
280.950256	0.003484	0.003479	
282.549927	0.003844	0.003717	
284.149628	0.003895	0.003826	
285.749390	0.004253	0.004192	
287.349182	0.004628	0.004320	
288.949005	0.005344	0.004724	
290.548889	0.005637	0.005297	
292.148804	0.007647	0.007226	
293.748749	0.010358	0.009875	
295.348755	0.015207	0.015001	
296.948792	0.021870	0.021433	
298.548889	0.031019	0.030425	
300.148987	0.042765	0.042279	
301.749146	0.057106	0.056600	
303.349335	0.075578	0.075042	
304.949554	0.098409	0.097533	
306.549835	0.123872	0.122885	
308.150146	0.155068	0.153762	
309.750458	0.187928	0.186396	
311.350861	0.223225	0.221231	
312.951233	0.260806	0.258496	
314.551697	0.299347	0.296784	
316.152161	0.338565	0.335207	
317.752686	0.377435	0.373642	
319.353210	0.417482	0.412988	
320.953796	0.455642	0.450228	
322.554382	0.494033	0.487624	
324.155029	0.531448	0.524003	
325.755676	0.559316	0.551785	
327.356384	0.585061	0.577783	
328.957092	0.614548	0.605853	
330.557861	0.640941	0.632125	
332.158630	0.665101	0.655963	
333.759430	0.687719	0.677580	
335.360260	0.705879	0.695897	
336.961121	0.724464	0.712708	
338.562012	0.739146	0.728186	
340.162903	0.753112	0.741023	
341.763855	0.765386	0.752310	
343.364807	0.775615	0.764123	
344.965759	0.78

File: 2021-07-05 NoP PMMA 40mgmL med speed INT_1.txt
NoP PMMA 40mgmL
Wavelength (nm)	Intensity
191.458	0.011020
196.247	0.004224
201.036	0.002553
205.827	0.002216
210.618	0.001915
215.41	0.001921
220.202	0.001927
224.995	0.001547
229.788	0.001631
234.582	0.001433
239.377	0.001308
244.172	0.001406
248.967	0.001690
253.763	0.002045
258.56	0.002099
263.357	0.002603
268.155	0.002932
272.953	0.003232
277.751	0.003593
282.55	0.004108
287.349	0.004641
292.149	0.007351
296.949	0.021510
301.749	0.055886
306.55	0.120716
311.351	0.218049
316.152	0.331906
320.954	0.447780
325.756	0.559150
330.558	0.636043
335.36	0.702990
340.163	0.750537
344.966	0.783147
349.769	0.804552
354.572	0.819577
359.376	0.829617
364.179	0.837583
368.983	0.842951
373.787	0.845098
378.591	0.843183
383.395	0.843531
388.199	0.847461
393.003	0.851364
397.807	0.853289
402.612	0.854675
407.416	0.855067
412.22	0.856228
417.025	0.855837
421.829	0.855843
426.633	0.856506
431.437	0.856605
436.241	0.857930
441.046	0.858013
445.849	0.858993
450.653	0.859942
455.457	0.860929
460.261	0.861501
465.064	0.861913
469.867	0.861874
474.67	0.862902
479.473	0.863274
484.276	0.864008
489.078	0.863926
493.88	0.863648
498.682	0.864759
503.483	0.865446
508.285	0.866122
513.086	0.865905
517.886	0.866111
522.687	0.867576
527.486	0.867936
532.286	0.868500
537.085	0.868832
541.884	0.870054
546.682	0.870043
551.48	0.870711
556.278	0.870697
561.075	0.870940
565.871	0.871170
570.667	0.871464
575.463	0.871742
580.258	0.871896
585.052	0.871954
589.846	0.871935
594.639	0.871733
599.432	0.871426
604.224	0.871072
609.016	0.871044
613.807	0.870585
618.597	0.870170
623.386	0.869994
628.175	0.869432
632.963	0.869938
637.751	0.869211
642.538	0.868696
647.324	0.868960
652.109	0.869050
656.893	0.868372
661.677	0.868323
666.46	0.868702
671.242	0.868280
676.024	0.868943
680.804	0.868766
685.584	0.868328
690.362	0.868215
695.14	0.867781
699.917	0.868057
704.693	0.868511
709.468	0.868284
714.242	0.868905
719.015	0.868190
723.788	0.867415
728.559	0.868147
733.329	0.867558
738.098	0.867188
742.866	0.866445
747.633	0.866616
752.399	0.866506
757.164	0.866518
761.928	0.865990
766.691	0.865370
771.452	0.864935
776.212	0.864488
780.972	0.864202
785.73	0.863914
790.487	0.863483
795.242	0.862649
799.997	0.862113
804.75	0.861847
809.502	0.861326
814.253	0.860482
819.002	0.860701
823.75	0.859615
828.497	0.859539
833.242	0.859417
837.986	0.858434
842.729	0.857879
847.47	0.858190
852.21	0.857770
856.949	0.856352
861.686	0.856632
866.422	0.856657
871.156	0.855588
875.889	0.854711
880.62	0.854954
885.35	0.854740
890.078	0.854032
894.805	0.855039
899.53	0.854904
904.254	0.854775
908.976	0.853531
913.697	0.853745
918.416	0.854413
923.133	0.853800
927.849	0.853919
932.563	0.852262
937.275	0.854258
941.986	0.854124
946.695	0.852280
951.402	0.852695
956.108	0.855053
960.811	0.853037
965.513	0.853846
970.214	0.853257
974.912	0.853509
979.609	0.854244
984.304	0.853825
988.997	0.854772
993.688	0.853177
998.378	0.854886
1016.81	0.852949
1027.09	0.853064
1037.38	0.852773
1047.66	0.855235
1057.95	0.856085
1068.23	0.862863
1078.51	0.861325
1088.8	0.868743
1099.08	0.870550
1109.37	0.872409
1119.65	0.873237
1129.94	0.872195
1140.22	0.874168
1150.51	0.873731
1160.8	0.875751
1171.09	0.872916
1181.38	0.878150
1191.67	0.874368
1201.96	0.878595
1212.26	0.874615
1222.55	0.881968
1232.85	0.875667
1243.15	0.878744
1253.45	0.876999
1263.75	0.880881
1274.05	0.877224
1284.36	0.882972
1294.66	0.878783
1304.97	0.888213
1315.28	0.879963
1325.6	0.888479
1335.91	0.879953
1346.23	0.888402
1356.55	0.888721
1366.88	0.879424
1377.2	0.891757
1387.53	0.876117
1397.87	0.886556
1408.2	0.877249
1418.54	0.893749
1428.88	0.886608
1439.22	0.894441
1449.57	0.885468
1459.92	0.897444
1470.28	0.886096
1480.64	0.897878
1491	0.880757
1501.36	0.897956
1511.73	0.884914
1522.11	0.890005
1532.48	0.883475
1542.87	0.889134
1553.25	0.886805
1563.64	0.885383
1574.04	0.890253
1584.43	0.887113
1594.84	0.888518
1605.25	0.887963
1615.66	0.890591
1626.08	0.886027
1636.5	0.890196
1646.93	0.891157
1657.36	0.890586
1667.8	0.890493
1678.24	0.890152
1688.69	0.890076